File: exp/reg_uci_concrete/concrete.csv
Cement, Blast Furnace Slag, Fly Ash, Water, Superplasticizer, Coarse Aggregate, Fine Aggregate, Age (day), Concrete compressive strength (MPa)
540,0.000000,0.000000,162,2.500000,1040,676,28,79.99
332.5,142.5,0.000000,228,0.000000,932,594,270,40.27
198.6,132.4,0.000000,192,0.000000,978.4,825.5,360,44.3
380,95,0.000000,228,0.000000,932,594,365,43.7
266,114,0.000000,228,0.000000,932,670,28,45.85
198.6,132.4,0.000000,192,0.000000,978.4,825.5,90,38.07
427.5,47.5,0.000000,228,0.000000,932,594,270,43.01
304,76,0.000000,228,0.000000,932,670,28,47.81
139.6,209.4,0.000000,192,0.000000,1047,806.9,90,39.36
380,95,0.000000,228,0.000000,932,594,90,40.56
427.5,47.5,0.000000,228,0.000000,932,594,180,41.84
139.6,209.4,0.000000,192,0.000000,1047,806.9,3.000000,8.060000
380,0.000000,0.000000,228,0.000000,932,670,365,52.52
380,95,0.000000,228,0.000000,932,594,270,41.15
427.5,47.5,0.000000,228,0.000000,932,594,28,37.43
304,76,0.000000,228,0.000000,932,670,365,55.26
198.6,132.4,0.000000,192,0.000000,978.4,825.5,180,41.72
190,190,0.000000,228,0.000000,932,670,365,53.69
237.5,237.5,0.000000,228,0.000000,932,594,28,30.08
475,0.000000,0.000000,228,0.000000,932,594,90,42.23
342,38,0.000000,228,0.000000,932,670,90,50.46
237.5,237.5,0.000000,228,0.000000,932,594,365,39
427.5,47.5,0.000000,228,0.000000,932,594,90,41.54
349,0.000000,0.000000,192,0.000000,1047,806.9,3.000000,15.05
237.5,237.5,0.000000,228,0.000000,932,594,7.000000,26.26
332.5,142.5,0.000000,228,0.000000,932,594,180,39.78
237.5,237.5,0.000000,228,0.000000,932,594,90,33.12
139.6,209.4,0.000000,192,0.000000,1047,806.9,7.000000,14.59
475,0.000000,0.000000,228,0.000000,932,594,365,41.93
304,76,0.000000,228,0.000000,932,670,180,50.95
304,76,0.000000,228,0.000000,932,670,270,54.38
310,0.000000,0.000000,192,0.000000,971,850.6,3.000000,9.870000
266,114,0.000000,228,0.000000,932,670,180,48.7
139.6,209.4,0.000000,192,0.000000,1047,806.9,360,44.7
190,190,0.000000,228,0.000000,932,670,28,40.86
374,189.2,0.000000,170.1,10.1,926.1,756.7,3.000000,34.4
425,106.3,0.000000,153.5,16.5,852.1,887.1,3.000000,33.4
375,93.8,0.000000,126.6,23.4,852.1,992.6,3.000000,29
469,117.2,0.000000,137.8,32.2,852.1,840.5,3.000000,40.2
388.6,97.1,0.000000,157.9,12.1,852.1,925.7,3.000000,28.1
425,106.3,0.000000,153.5,16.5,852.1,887.1,3.000000,33.4
401.8,94.7,0.000000,147.4,11.4,946.8,852.1,3.000000,41.1
323.7,282.8,0.000000,183.8,10.3,942.7,659.9,3.000000,28.3
362.6,189,0.000000,164.9,11.6,944.7,755.8,3.000000,35.3
362.6,189,0.000000,164.9,11.6,944.7,755.8,3.000000,35.3
389.9,189,0.000000,145.9,22,944.7,755.8,3.000000,40.6
337.9,189,0.000000,174.9,9.500000,944.7,755.8,3.000000,24.1
313.3,262.2,0.000000,175.5,8.600000,1046.9,611.8,7.000000,42.8
425,106.3,0.000000,151.4,18.6,936,803.7,7.000000,46.8
475,118.8,0.000000,181.1,8.900000,852.1,781.5,7.000000,55.6
425,106.3,0.000000,153.5,16.5,852.1,887.1,7.000000,49.2
531.3,0.000000,0.000000,141.8,28.2,852.1,893.7,7.000000,46.9
318.8,212.5,0.000000,155.7,14.3,852.1,880.4,7.000000,33.4
362.6,189,0.000000,164.9,11.6,944.7,755.8,7.000000,55.9
379.5,151.2,0.000000,153.9,15.9,1134.3,605,7.000000,47.1
286.3,200.9,0.000000,144.7,11.2,1004.6,803.7,7.000000,38
439,177,0.000000,186,11.1,884.9,707.9,7.000000,56.1
362.6,189,0.000000,164.9,11.6,944.7,755.8,7.000000,22.9
374,189.2,0.000000,170.1,10.1,926.1,756.7,28,61.09
425,106.3,0.000000,153.5,16.5,852.1,887.1,28,60.29
375,93.8,0.000000,126.6,23.4,852.1,992.6,28,56.7
469,117.2,0.000000,137.8,32.2,852.1,840.5,28,66.9
388.6,97.1,0.000000,157.9,12.1,852.1,925.7,28,50.7
425,106.3,0.000000,153.5,16.5,852.1,887.1,28,60.29
401.8,94.7,0.000000,147.4,11.4,946.8,852.1,28,68.5
323.7,282.8,0.000000,183.8,10.3,942.7,659.9,28,74.7
362.6,189,0.000000,164.9,11.6,944.7,755.8,28,71.3
362.6,189,0.000000,164.9,11.6,944.7,755.8,28,71.3
389.9,189,0.000000,145.9,22,944.7,755.8,28,74.5
337.9,189,0.000000,174.9,9.500000,944.7,755.8,28,49.9
313.3,262.2,0.000000,175.5,8.600000,1046.9,611.8,56,64.9
425,106.3,0.000000,151.4,18.6,936,803.7,56,64.9
475,118.8,0.000000,181.1,8.900000,852.1,781.5,56,72.3
425,106.3,0.000000,153.5,16.5,852.1,887.1,56,64.3
531.3,0.000000,0.000000,141.8,28.2,852.1,893.7,56,58.8
318.8,212.5,0.000000,155.7,14.3,852.1,880.4,56,66.1
362.6,189,0.000000,164.9,11.6,944.7,755.8,56,77.3
379.5,151.2,0.000000,153.9,15.9,1134.3,605,56,54.9
286.3,200.9,0.000000,144.7,11.2,1004.6,803.7,56,72.99
439,177,0.000000,186,11.1,884.9,707.9,56,71.7
362.6,189,0.000000,164.9,11.6,944.7,755.8,56,77.3
374,189.2,0.000000,170.1,10.1,926.1,756.7,91,64.9
425,106.3,0.000000,153.5,16.5,852.1,887.1,91,65.2
375,93.8,0.000000,126.6,23.4,852.1,992.6,91,62.5
469,117.2,0.000000,137.8,32.2,852.1,840.5,91,70.7
388.6,97.1,0.000000,157.9,12.1,852.1,925.7,91,57.6
425,106.3,0.000000,153.5,16.5,852.1,887.1,91,65.2
401.8,94.7,0.000000,147.4,11.4,946.8,852.1,91,75.5
379.5,151.2,0.000000,153.9,15.9,1134.3,605,91,56.5
286.3,200.9,0.000000,144.7,11.2,1004.6,803.7,91,76.8
439,177,0.000000,186,11.1,884.9,707.9,91,73.3
362.6,189,0.000000,164.9,11.6,944.7,755.8,91,79.3
222.4,0.000000,96.7,189.3,4.500000,967.1,870.3,3.000000,11.58
222.4,0.000000,96.7,189.3,4.500000,967.1,870.3,28,24.89
222.4,0.000000,96.7,189.3,4.500000,967.1,870.3,100,40.71
233.8,0.000000,94.6,197.9,4.600000,947,852.2,14,22.14
233.8,0.000000,94.6,197.9,4.600000,947,852.2,56,27.66
194.7,0.000000,100.5,165.6,7.500000,1006.4,905.9,3.000000,12.45
194.7,0.000000,100.5,165.6,7.500000,1006.4,905.9,28,25.72
194.7,0.000000,100.5,165.6,7.500000,1006.4,905.9,100,37.34
190.7,0.000000,125.4,162.1,7.800000,1090,804,14,21.06
190.7,0.000000,125.4,162.1,7.800000,1090,804,56,35.34
212.1,0.000000,121.6,180.3,5.700000,1057.6,779.3,3.000000,12.47
212.1,0.000000,121.6,180.3,5.700000,1057.6,779.3,28,24.9
212.1,0.000000,121.6,180.3,5.700000,1057.6,779.3,100,39.61
230,0.000000,118.3,195.5,4.600000,1029.4,758.6,14,20.08
230,0.000000,118.3,195.5,4.600000,1029.4,758.6,56,31.54
190.3,0.000000,125.2,161.9,9.900000,1088.1,802.6,3.000000,9.450000
190.3,0.000000,125.2,161.9,9.900000,1088.1,802.6,28,28.47
190.3,0.000000,125.2,161.9,9.900000,1088.1,802.6,100,40.39
166.1,0.000000,163.3,176.5,4.500000,1058.6,780.1,14,25.48
166.1,0.000000,163.3,176.5,4.500000,1058.6,780.1,56,28.63
168,42.1,163.8,121.8,5.700000,1058.7,780.1,3.000000,7.750000
168,42.1,163.8,121.8,5.700000,1058.7,780.1,28,24.24
168,42.1,163.8,121.8,5.700000,1058.7,780.1,100,39.23
213.7,98.1,24.5,181.7,6.900000,1065.8,785.4,14,30.39
213.7,98.1,24.5,181.7,6.900000,1065.8,785.4,56,50.77
213.8,98.1,24.5,181.7,6.700000,1066,785.5,3.000000,13.18
213.8,98.1,24.5,181.7,6.700000,1066,785.5,28,40.23
213.8,98.1,24.5,181.7,6.700000,1066,785.5,100,49.97
229.7,0.000000,118.2,195.2,6.100000,1028.1,757.6,14,22.32
229.7,0.000000,118.2,195.2,6.100000,1028.1,757.6,56,31.35
238.1,0.000000,94.1,186.7,7.000000,949.9,847,3.000000,19.93
238.1,0.000000,94.1,186.7,7.000000,949.9,847,28,30.23
238.1,0.000000,94.1,186.7,7.000000,949.9,847,100,44.3
250,0.000000,95.7,187.4,5.500000,956.9,861.2,14,24.92
250,0.000000,95.7,187.4,5.500000,956.9,861.2,56,38.33
212.5,0.000000,100.4,159.3,8.700000,1007.8,903.6,3.000000,13.54
212.5,0.000000,100.4,159.3,8.700000,1007.8,903.6,28,31.64
212.5,0.000000,100.4,159.3,8.700000,1007.8,903.6,100,42.92
212.6,0.000000,100.4,159.4,10.4,1003.8,903.8,14,25.37
212.6,0.000000,100.4,159.4,10.4,1003.8,903.8,56,44.4
212,0.000000,124.8,159,7.800000,1085.4,799.5,3.000000,19.52
212,0.000000,124.8,159,7.800000,1085.4,799.5,28,38.5
212,0.000000,124.8,159,7.800000,1085.4,799.5,100,47.82
231.8,0.000000,121.6,174,6.700000,1056.4,778.5,14,26.77
231.8,0.000000,121.6,174,6.700000,1056.4,778.5,56,42.7
251.4,0.000000,118.3,188.5,5.800000,1028.4,757.7,3.000000,17.22
251.4,0.000000,118.3,188.5,5.800000,1028.4,757.7,28,29.65
251.4,0.000000,118.3,188.5,5.800000,1028.4,757.7,100,43.58
251.4,0.000000,118.3,188.5,6.400000,1028.4,757.7,14,24.43
251.4,0.000000,118.3,188.5,6.400000,1028.4,757.7,56,36.64
181.4,0.000000,167,169.6,7.600000,1055.6,777.8,3.000000,13.62
181.4,0.000000,167,169.6,7.600000,1055.6,777.8,28,27.77
181.4,0.000000,167,169.6,7.600000,1055.6,777.8,100,45.37
182,45.2,122,170.2,8.200000,1059.4,780.7,14,21.5
182,45.2,122,170.2,8.200000,1059.4,780.7,56,43.5
168.9,42.2,124.3,158.3,10.8,1080.8,796.2,3.000000,7.400000
168.9,42.2,124.3,158.3,10.8,1080.8,796.2,28,31.12
168.9,42.2,124.3,158.3,10.8,1080.8,796.2,100,48.15
290.4,0.000000,96.2,168.1,9.400000,961.2,865,14,34.67
290.4,0.000000,96.2,168.1,9.400000,961.2,865,56,45.08
277.1,0.000000,97.4,160.6,11.8,973.9,875.6,3.000000,23.14
277.1,0.000000,97.4,160.6,11.8,973.9,875.6,28,48.28
277.1,0.000000,97.4,160.6,11.8,973.9,875.6,100,55.64
295.7,0.000000,95.6,171.5,8.900000,955.1,859.2,14,35.23
295.7,0.000000,95.6,171.5,8.900000,955.1,859.2,56,48.72
251.8,0.000000,99.9,146.1,12.4,1006,899.8,3.000000,21.02
251.8,0.000000,99.9,146.1,12.4,1006,899.8,28,33.94
251.8,0.000000,99.9,146.1,12.4,1006,899.8,100,45.37
249.1,0.000000,98.8,158.1,12.8,987.8,889,14,28.68
249.1,0.000000,98.8,158.1,12.8,987.8,889,56,42.03
252.3,0.000000,98.8,146.3,14.2,987.8,889,3.000000,21.78
252.3,0.000000,98.8,146.3,14.2,987.8,889,28,50.6
252.3,0.000000,98.8,146.3,14.2,987.8,889,100,60.95
246.8,0.000000,125.1,143.3,12,1086.8,800.9,14,42.22
246.8,0.000000,125.1,143.3,12,1086.8,800.9,56,60.32
275.1,0.000000,121.4,159.5,9.900000,1053.6,777.5,3.000000,23.8
275.1,0.000000,121.4,159.5,9.900000,1053.6,777.5,28,51.33
275.1,0.000000,121.4,159.5,9.900000,1053.6,777.5,100,58.61
297.2,0.000000,117.5,174.8,9.500000,1022.8,753.5,14,36.99
297.2,0.000000,117.5,174.8,9.500000,1022.8,753.5,56,51.96
213.7,0.000000,174.7,154.8,10.2,1053.5,776.4,3.000000,17.57
213.7,0.000000,174.7,154.8,10.2,1053.5,776.4,28,40.15
213.7,0.000000,174.7,154.8,10.2,1053.5,776.4,100,50.08
213.5,0.000000,174.2,154.6,11.7,1052.3,775.5,14,33.7
213.5,0.000000,174.2,154.6,11.7,1052.3,775.5,56,51.43
277.2,97.8,24.5,160.7,11.2,1061.7,782.5,3.000000,30.45
277.2,97.8,24.5,160.7,11.2,1061.7,782.5,28,63.14
277.2,97.8,24.5,160.7,11.2,1061.7,782.5,100,66.95
218.2,54.6,123.8,140.8,11.9,1075.7,792.7,14,35.96
218.2,54.6,123.8,140.8,11.9,1075.7,792.7,56,61.99
214.9,53.8,121.9,155.6,9.600000,1014.3,780.6,3.000000,18.02
214.9,53.8,121.9,155.6,9.600000,1014.3,780.6,28,52.2
214.9,53.8,121.9,155.6,9.600000,1014.3,780.6,100,56.63
218.9,0.000000,124.1,158.5,11.3,1078.7,794.9,14,26.05
218.9,0.000000,124.1,158.5,11.3,1078.7,794.9,56,37.27
376,0.000000,0.000000,214.6,0.000000,1003.5,762.4,3.000000,16.28
376,0.000000,0.000000,214.6,0.000000,1003.5,762.4,28,31.97
376,0.000000,0.000000,214.6,0.000000,1003.5,762.4,100,43.06
475,0.000000,59,142,1.900000,1098,641,28,57.23
505,0.000000,60,195,0.000000,1030,630,28,64.02
516,0.000000,0.000000,162,8.200000,801,802,28,41.37
528,0.000000,0.000000,185,6.900000,920,720,28,56.83
385,0.000000,136,158,20,903,768,28,55.55
450.1,50,0.000000,200,3.000000,1124.4,613.2,28,39.38
333,17.5,163,167,17.9,996,652,28,47.28
405,0.000000,0.000000,175,0.000000,1120,695,28,52.3
516,0.000000,0.000000,162,8.300000,801,802,28,41.37
160,128,122,182,6.400000,824,879,28,39.4
250,180,95,159,9.500000,860,800,28,67.87
285,190,0.000000,163,7.600000,1031,685,28,53.58
275,180,120,162,10.4,830,765,28,76.24
165,0.000000,143.6,163.8,0.000000,1005.6,900.9,3.000000,14.4
178,129.8,118.6,179.9,3.600000,1007.3,746.8,3.000000,20.73
172.4,13.6,172.4,156.8,4.100000,1006.3,856.4,3.000000,21.29
167,75.4,167,164,7.900000,1007.3,770.1,3.000000,15.52
190.3,0.000000,125.2,166.6,9.900000,1079,798.9,3.000000,12.55
213.5,0.000000,174.2,159.2,11.7,1043.6,771.9,3.000000,15.61
251.4,0.000000,118.3,192.9,5.800000,1043.6,754.3,3.000000,11.98
165,128.5,132.1,175.1,8.100000,1005.8,746.6,14,33.09
167.4,129.9,128.6,175.5,7.800000,1006.3,746.6,14,31.81
173.5,50.1,173.5,164.8,6.500000,1006.2,793.5,14,33.01
173.8,93.4,159.9,172.3,9.700000,1007.2,746.6,14,29.55
250,0.000000,95.7,191.8,5.300000,948.9,857.2,14,24.66
194.7,0.000000,100.5,170.2,7.500000,998,901.8,14,24.28
165,0.000000,143.6,163.8,0.000000,1005.6,900.9,28,26.2
178,129.8,118.6,179.9,3.600000,1007.3,746.8,28,39.16
172.4,13.6,172.4,156.8,4.100000,1006.3,856.4,28,33.69
167,75.4,167,164,7.900000,1007.3,770.1,28,41.41
190.3,0.000000,125.2,166.6,9.900000,1079,798.9,28,24.85
213.5,0.000000,174.2,159.2,11.7,1043.6,771.9,28,44.64
251.4,0.000000,118.3,192.9,5.800000,1043.6,754.3,28,33.27
165,128.5,132.1,175.1,8.100000,1005.8,746.6,56,53.72
167.4,129.9,128.6,175.5,7.800000,1006.3,746.6,56,51.72
173.5,50.1,173.5,164.8,6.500000,1006.2,793.5,56,53.77
173.8,93.4,159.9,172.3,9.700000,1007.2,746.6,56,48.99
250,0.000000,95.7,191.8,5.300000,948.9,857.2,56,39.64
194.7,0.000000,100.5,170.2,7.500000,998,901.8,56,43.39
165,0.000000,143.6,163.8,0.000000,1005.6,900.9,100,37.96
178,129.8,118.6,179.9,3.600000,1007.3,746.8,100,49.99
172.4,13.6,172.4,156.8,4.100000,1006.3,856.4,100,37.68
167,75.4,167,164,7.900000,1007.3,770.1,100,56.81
190.3,0.000000,125.2,166.6,9.900000,1079,798.9,100,33.56
213.5,0.000000,174.2,159.2,11.7,1043.6,771.9,100,52.96
251.4,0.000000,118.3,192.9,5.800000,1043.6,754.3,100,40.15
446,24,79,162,11.6,967,712,28,44.42
446,24,79,162,10.3,967,712,28,53.39
446,24,79,162,11.6,967,712,3.000000,25.02
446,24,79,162,11.6,967,712,7.000000,52.01
446,24,79,162,11.6,967,712,7.000000,39.3
446,24,79,162,11.6,967,712,56,56.14
446,24,79,162,10.3,967,712,56,54.77
387,20,94,157,13.9,938,845,28,46.68
387,20,94,157,14.3,938,845,3.000000,22.75
387,20,94,157,11.6,938,845,3.000000,34.77
387,20,94,157,13.9,938,845,7.000000,45.9
387,20,94,157,14.3,938,845,56,56.34
387,20,94,157,11.6,938,845,56,61.46
355,19,97,145,12.3,967,871,28,55.45
491,26,123,201,3.900000,822,699,28,57.92
491,26,123,210,3.900000,882,699,7.000000,33.49
491,26,123,201,3.900000,822,699,3.000000,29.55
491,26,123,201,3.900000,822,699,56,61.86
424,22,132,178,8.500000,882,750,3.000000,32.01
424,22,132,178,8.500000,822,750,7.000000,39
424,22,132,168,8.900000,822,750,3.000000,32.11
424,22,132,168,8.900000,822,750,56,74.36
202,11,141,206,1.700000,942,801,3.000000,9.850000
202,11,141,206,1.700000,942,801,56,23.25
284,15,141,179,5.500000,842,801,3.000000,13.4
284,15,141,179,5.500000,842,801,56,44.52
359,19,141,154,10.9,942,801,28,59.49
359,19,141,154,10.9,942,801,3.000000,23.64
359,19,141,154,10.9,942,801,7.000000,38.61
359,19,141,154,10.9,942,801,56,66.78
289,0.000000,0.000000,192,0.000000,913.2,895.3,90,32.07
393,0.000000,0.000000,192,0.000000,940.6,785.6,3.000000,19.2
393,0.000000,0.000000,192,0.000000,940.6,785.6,28,39.6
480,0.000000,0.000000,192,0.000000,936.2,712.2,7.000000,34.57
480,0.000000,0.000000,192,0.000000,936.2,712.2,3.000000,24.4
255,0.000000,0.000000,192,0.000000,889.8,945,90,21.86
289,0.000000,0.000000,192,0.000000,913.2,895.3,7.000000,14.6
333,0.000000,0.000000,192,0.000000,931.2,842.6,28,31.97
289,0.000000,0.000000,192,0.000000,913.2,895.3,28,25.57
393,0.000000,0.000000,192,0.000000,940.6,785.6,7.000000,27.74
158.8,238.2,0.000000,185.7,0.000000,1040.6,734.3,7.000000,9.620000
238.2,158.8,0.000000,185.7,0.000000,1040.6,734.3,7.000000,15.69
193.5,290.2,0.000000,185.7,0.000000,998.2,704.3,28,32.63
272.8,181.9,0.000000,185.7,0.000000,1012.4,714.3,7.000000,19.77
220.8,147.2,0.000000,185.7,0.000000,1055,744.3,28,25.75
382.5,0.000000,0.000000,185.7,0.000000,1047.8,739.3,7.000000,24.07
158.8,238.2,0.000000,185.7,0.000000,1040.6,734.3,28,21.07
255.5,170.3,0.000000,185.7,0.000000,1026.6,724.3,28,32.05
397,0.000000,0.000000,185.7,0.000000,1040.6,734.3,7.000000,25.45
295.8,0.000000,0.000000,185.7,0.000000,1091.4,769.3,28,25.22
220.8,147.2,0.000000,185.7,0.000000,1055,744.3,7.000000,13.09
135.7,203.5,0.000000,185.7,0.000000,1076.2,759.3,7.000000,7.510000
339.2,0.000000,0.000000,185.7,0.000000,1069.2,754.3,7.000000,21.18
193.5,290.2,0.000000,185.7,0.000000,998.2,704.3,7.000000,17.2
290.2,193.5,0.000000,185.7,0.000000,998.2,704.3,7.000000,21.86
170.3,155.5,0.000000,185.7,0.000000,1026.6,724.3,28,25.73
228,342.1,0.000000,185.7,0.000000,955.8,674.3,7.000000,21.92
381.4,0.000000,0.000000,185.7,0.000000,1104.6,784.3,7.000000,14.54
186.2,124.1,0.000000,185.7,0.000000,1083.4,764.3,7.000000,8.000000
238.1,0.000000,0.000000,185.7,0.000000,1118.8,789.3,7.000000,10.34
382.5,0.000000,0.000000,185.7,0.000000,1047.8,739.3,28,37.44
316.1,210.7,0.000000,185.7,0.000000,977,689.3,7.000000,24.44
170.3,155.5,0.000000,185.7,0.000000,1026.6,724.3,7.000000,10.73
339,0.000000,0.000000,197,0.000000,968,781,3.000000,13.22
339,0.000000,0.000000,197,0.000000,968,781,14,27.04
339,0.000000,0.000000,197,0.000000,968,781,90,35.17
339,0.000000,0.000000,197,0.000000,968,781,365,38.89
236,0.000000,0.000000,194,0.000000,968,885,14,12.84
236,0.000000,0.000000,194,0.000000,968,885,90,21.95
236,0.000000,0.000000,193,0.000000,968,885,365,25.08
277,0.000000,0.000000,191,0.000000,968,856,28,25.97
277,0.000000,0.000000,191,0.000000,968,856,90,31.25
277,0.000000,0.000000,191,0.000000,968,856,360,33.7
254,0.000000,0.000000,198,0.000000,968,863,90,26.94
254,0.000000,0.000000,198,0.000000,968,863,365,29.79
307,0.000000,0.000000,193,0.000000,968,812,365,36.15
307,0.000000,0.000000,193,0.000000,968,812,28,27.53
236,0.000000,0.000000,193,0.000000,968,885,7.000000,9.990000
200,0.000000,0.000000,180,0.000000,1125,845,28,12.25
225,0.000000,0.000000,181,0.000000,1113,833,28,17.34
325,0.000000,0.000000,184,0.000000,1063,783,28,30.57
275,0.000000,0.000000,183,0.000000,1088,808,28,24.5
300,0.000000,0.000000,184,0.000000,1075,795,28,26.85
375,0.000000,0.000000,186,0.000000,1038,758,28,38.21
400,0.000000,0.000000,187,0.000000,1025,745,7.000000,30.14
250,0.000000,0.000000,182,0.000000,1100,820,28,20.87
350,0.000000,0.000000,186,0.000000,1050,770,28,34.29
250.2,166.8,0.000000,203.5,0.000000,977.6,694.1,90,47.71
141.3,212,0.000000,203.5,0.000000,971.8,748.5,28,29.89
122.6,183.9,0.000000,203.5,0.000000,958.2,800.1,90,33.19
102,153,0.000000,192,0.000000,887,942,3.000000,4.570000
122.6,183.9,0.000000,203.5,0.000000,958.2,800.1,28,24.29
200,133,0.000000,192,0.000000,965.4,806.2,3.000000,11.41
305.3,203.5,0.000000,203.5,0.000000,965.4,631,7.000000,25.89
116,173,0.000000,192,0.000000,909.8,891.9,90,31.02
157,236,0.000000,192,0.000000,935.4,781.2,28,33.66
250.2,166.8,0.000000,203.5,0.000000,977.6,694.1,7.000000,19.35
192,288,0.000000,192,0.000000,929.8,716.1,3.000000,12.79
153,102,0.000000,192,0.000000,888,943.1,3.000000,4.780000
305.3,203.5,0.000000,203.5,0.000000,965.4,631,28,43.38
173,116,0.000000,192,0.000000,946.8,856.8,3.000000,6.940000
236,157,0.000000,192,0.000000,972.6,749.1,3.000000,13.57
166.8,250.2,0.000000,203.5,0.000000,975.6,692.6,7.000000,15.75
288,192,0.000000,192,0.000000,932,717.8,28,38.8
102,153,0.000000,192,0.000000,887,942,28,17.28
183.9,122.6,0.000000,203.5,0.000000,959.2,800,28,24.05
192,288,0.000000,192,0.000000,929.8,716.1,90,50.73
305.3,203.5,0.000000,203.5,0.000000,965.4,631,3.000000,14.14
108.3,162.4,0.000000,203.5,0.000000,938.2,849,3.000000,2.330000
288,192,0.000000,192,0.000000,932,717.8,7.000000,23.52
212,141.3,0.000000,203.5,0.000000,973.4,750,90,39.7
236,157,0.000000,192,0.000000,972.6,749.1,28,32.88
183.9,122.6,0.000000,203.5,0.000000,959.2,800,7.000000,10.79
203.5,305.3,0.000000,203.5,0.000000,963.4,630,28,41.68
133,200,0.000000,192,0.000000,927.4,839.2,3.000000,6.880000
200,133,0.000000,192,0.000000,965.4,806.2,7.000000,17.17
250.2,166.8,0.000000,203.5,0.000000,977.6,694.1,3.000000,9.730000
153,102,0.000000,192,0.000000,888,943.1,90,26.32
116,173,0.000000,192,0.000000,909.8,891.9,3.000000,6.280000
250.2,166.8,0.000000,203.5,0.000000,977.6,694.1,28,36.96
192,288,0.000000,192,0.000000,929.8,716.1,7.000000,21.48
153,102,0.000000,192,0.000000,888,943.1,7.000000,8.370000
116,173,0.000000,192,0.000000,909.8,891.9,7.000000,10.09
122.6,183.9,0.000000,203.5,0.000000,958.2,800.1,7.000000,10.35
203.5,305.3,0.000000,203.5,0.000000,963.4,630,90,51.86
310,0.000000,0.000000,192,0.000000,1012,830,7.000000,17.24
310,0.000000,0.000000,192,0.000000,1012,830,90,35.76
331,0.000000,0.000000,192,0.000000,1025,821,3.000000,14.31
331,0.000000,0.000000,192,0.000000,1025,821,28,31.74
331,0.000000,0.000000,192,0.000000,1025,821,120,39.38
349,0.000000,0.000000,192,0.000000,1056,809,7.000000,9.010000
349,0.000000,0.000000,192,0.000000,1056,809,90,40.66
238,0.000000,0.000000,186,0.000000,1119,789,7.000000,12.05
296,0.000000,0.000000,186,0.000000,1090,769,7.000000,18.91
297,0.000000,0.000000,186,0.000000,1040,734,7.000000,30.96
480,0.000000,0.000000,192,0.000000,936,721,90,54.28
281,0.000000,0.000000,186,0.000000,1104,774,7.000000,14.5
500,0.000000,0.000000,200,0.000000,1125,613,1.000000,12.64
500,0.000000,0.000000,200,0.000000,1125,613,7.000000,33.21
500,0.000000,0.000000,200,0.000000,1125,613,28,44.09
540,0.000000,0.000000,173,0.000000,1125,613,14,59.76
540,0.000000,0.000000,173,0.000000,1125,613,90,69.66
540,0.000000,0.000000,173,0.000000,1125,613,270,74.17
350,0.000000,0.000000,203,0.000000,974,775,14,22.53
350,0.000000,0.000000,203,0.000000,974,775,56,29.98
350,0.000000,0.000000,203,0.000000,974,775,180,32.72
385,0.000000,0.000000,186,0.000000,966,763,3.000000,14.7
385,0.000000,0.000000,186,0.000000,966,763,14,27.92
331,0.000000,0.000000,192,0.000000,978,825,180,39
349,0.000000,0.000000,192,0.000000,1047,806,3.000000,14.99
382,0.000000,0.000000,186,0.000000,1047,739,7.000000,24
382,0.000000,0.000000,186,0.000000,1111,784,7.000000,11.47
339,0.000000,0.000000,185,0.000000,1069,754,7.000000,21.16
295,0.000000,0.000000,185,0.000000,1069,769,7.000000,14.8
238,0.000000,0.000000,185,0.000000,1118,789,28,17.54
296,0.000000,0.000000,192,0.000000,1085,765,28,21.65
331,0.000000,0.000000,192,0.000000,879,825,3.000000,13.52
331,0.000000,0.000000,192,0.000000,978,825,28,31.45
349,0.000000,0.000000,192,0.000000,1047,806,7.000000,18.13
349,0.000000,0.000000,192,0.000000,1047,806,90,39.49
349,0.000000,0.000000,192,0.000000,1047,806,360,42.13
302,0.000000,0.000000,203,0.000000,974,817,180,26.74
500,0.000000,0.000000,200,0.000000,1125,613,90,47.22
500,0.000000,0.000000,200,0.000000,1125,613,270,55.16
252,0.000000,0.000000,185,0.000000,1111,784,7.000000,13.71
339,0.000000,0.000000,185,0.000000,1060,754,28,31.65
393,0.000000,0.000000,192,0.000000,940,758,28,39.58
382,0.000000,0.000000,185,0.000000,1047,739,7.000000,24
252,0.000000,0.000000,186,0.000000,1111,784,7.000000,11.47
310,0.000000,0.000000,192,0.000000,970,850,7.000000,14.99
310,0.000000,0.000000,192,0.000000,970,850,90,34.68
310,0.000000,0.000000,192,0.000000,970,850,360,38.11
525,0.000000,0.000000,189,0.000000,1125,613,7.000000,42.42
525,0.000000,0.000000,189,0.000000,1125,613,28,55.94
525,0.000000,0.000000,189,0.000000,1125,613,270,67.11
322,0.000000,0.000000,203,0.000000,974,800,28,25.18
302,0.000000,0.000000,203,0.000000,974,817,28,21.75
480,0.000000,0.000000,192,0.000000,936,721,3.000000,24.39
522,0.000000,0.000000,146,0.000000,896,896,28,74.99
162,190,148,179,19,838,741,28,33.76
147,115,89,202,9.000000,860,829,28,19.99
310,143,111,168,22,914,651,28,33.69
304,140,0.000000,214,6.000000,895,722,28,33.42
159,149,116,175,15,953,720,28,27.68
310,143,0.000000,168,10,914,804,28,45.3
151,0.000000,184,167,12,991,772,28,15.57
298,137,107,201,6.000000,878,655,28,53.52
366,187,0.000000,191,7.000000,824,757,28,65.91
252,97,76,194,8.000000,835,821,28,33.4
156,243,0.000000,180,11,1022,698,28,37.36
298,0.000000,107,186,6.000000,879,815,28,42.64
287,121,94,188,9.000000,904,696,28,41.94
356,0.000000,142,193,11,801,778,28,40.87
322,149,0.000000,186,8.000000,951,709,28,52.42
314,0.000000,113,170,10,925,783,28,38.46
140,164,128,237,6.000000,869,656,28,35.23
298,0.000000,107,210,11,880,744,28,31.87
160,250,0.000000,168,12,1049,688,28,39.45
276,116,90,180,9.000000,870,768,28,44.28
149,139,109,193,6.000000,892,780,28,23.69
261,100,78,201,9.000000,864,761,28,32.4
313,0.000000,113,178,8.000000,1002,689,28,36.8
146,230,0.000000,202,3.000000,827,872,28,33.06
133,210,0.000000,196,3.000000,949,795,28,31.03
152,0.000000,112,184,8.000000,992,816,28,12.18
140,133,103,200,7.000000,916,753,28,36.44
300,0.000000,120,212,10,878,728,28,23.84
148,0.000000,137,158,16,1002,830,28,17.95
153,145,0.000000,178,8.000000,1000,822,28,19.01
158,0.000000,195,220,11,898,713,28,8.540000
273,0.000000,90,199,11,931,762,28,32.24
143,169,143,191,8.000000,967,643,28,29.72
313,161,0.000000,178,10,917,759,28,52.44
336,0.000000,0.000000,182,3.000000,986,817,28,44.86
150,237,0.000000,174,12,1069,675,28,37.43
331,170,0.000000,195,8.000000,811,802,28,56.61
155,183,0.000000,193,9.000000,877,868,28,23.79
266,112,87,178,10,910,745,28,39.42
313,145,0.000000,127,8.000000,1000,822,28,44.52
144,136,106,178,7.000000,941,774,28,26.14
277,117,91,191,7.000000,946,666,28,43.57
313,145,0.000000,178,8.000000,1002,689,28,41.05
289,134,0.000000,195,6.000000,924,760,28,46.24
145,0.000000,179,202,8.000000,824,869,28,10.54
136,162,126,172,10,923,764,28,29.07
255,99,77,189,6.000000,919,749,28,33.8
136,196,98,199,6.000000,847,783,28,26.97
162,214,164,202,10,820,680,28,30.65
149,153,194,192,8.000000,935,623,28,24.58
159,209,161,201,7.000000,848,669,28,30.88
154,174,185,228,7.000000,845,612,28,24.34
184,86,190,213,6.000000,923,623,28,22.93
236.9,91.7,71.5,246.9,6.000000,852.9,695.4,28,28.63
154.8,183.4,0.000000,193.3,9.100000,1047.4,696.7,28,18.29
296,0.000000,106.7,221.4,10.5,819.2,778.4,28,31.42
313.3,145,0.000000,178.5,8.000000,867.2,824,28,40.93
153.1,145,113,178.5,8.000000,1001.9,688.7,28,25.56
149.5,236,0.000000,175.8,12.6,846.8,892.7,28,32.96
153.1,145,113,178.5,8.000000,867.2,824,28,26.23
326.5,0.000000,137.9,199,10.8,801.1,792.5,28,38.63
261.9,110.5,86.1,195.4,5.000000,895.2,732.6,28,33.72
150.7,0.000000,185.3,166.7,15.6,1074.5,678,28,13.46
149,117.6,91.7,182.9,7.100000,953.4,780.3,28,23.52
259.9,100.6,78.4,170.6,10.4,935.7,762.9,28,49.77
284,119.7,0.000000,168.3,7.200000,970.4,794.2,28,40.93
144.8,0.000000,133.6,180.8,11.1,979.5,811.5,28,13.2
143.7,170.2,132.6,191.6,8.500000,814.1,805.3,28,29.87
154.8,0.000000,142.8,193.3,9.100000,1047.4,696.7,28,12.46
134.7,0.000000,165.7,180.2,10,961,804.9,28,13.29
314,145.3,113.2,178.9,8.000000,869.1,690.2,28,46.23
145.7,172.6,0.000000,181.9,3.400000,985.8,816.8,28,23.74
148.1,0.000000,182.1,181.4,15,838.9,884.3,28,15.53
298.1,0.000000,107.5,163.6,12.8,953.2,784,28,35.87
155.2,183.9,143.2,193.8,9.200000,879.6,698.5,28,28.99
147.8,175.1,0.000000,171.2,2.200000,1000,828.5,28,26.92
312.7,0.000000,0.000000,178.1,8.000000,999.7,822.2,28,25.1
154.8,0.000000,142.8,193.3,9.100000,877.2,867.7,28,9.740000
272.8,105.1,81.8,209.7,9.000000,904,679.7,28,37.17
153.6,144.2,112.3,220.1,10.1,923.2,657.9,28,16.5
151.8,178.1,138.7,167.5,18.3,944,694.6,28,36.35
143.6,0.000000,174.9,158.4,17.9,942.7,844.5,28,15.42
374.3,0.000000,0.000000,190.2,6.700000,1013.2,730.4,28,39.06
152.6,238.7,0.000000,200,6.300000,1001.8,683.9,28,26.86
304.8,0.000000,99.6,196,9.800000,959.4,705.2,28,30.12
141.9,166.6,129.7,173.5,10.9,882.6,785.3,28,44.61
321.3,164.2,0.000000,190.5,4.600000,870,774,28,57.22
279.8,128.9,100.4,172.4,9.500000,825.1,804.9,28,52.83
164.6,0.000000,150.4,181.6,11.7,1023.3,728.9,28,18.03
160.2,188,146.4,203.2,11.3,828.7,709.7,28,35.31
317.9,0.000000,126.5,209.7,5.700000,860.5,736.6,28,40.06
325.6,166.4,0.000000,174,8.900000,881.6,790,28,61.24
132,206.5,160.9,178.9,5.500000,866.9,735.6,28,33.31
164.2,0.000000,200.1,181.2,12.6,849.3,846,28,15.09
321.4,0.000000,127.9,182.5,11.5,870.1,779.7,28,37.27
288.4,121,0.000000,177.4,7.000000,907.9,829.5,28,42.14
264.5,111,86.5,195.5,5.900000,832.6,790.4,28,41.54
166,259.7,0.000000,183.2,12.7,858.8,826.8,28,37.92
322.2,0.000000,115.6,196,10.4,817.9,813.4,28,31.18
159.1,186.7,0.000000,175.6,11.3,989.6,788.9,28,32.77
260.9,100.5,78.3,200.6,8.600000,864.5,761.5,28,32.4